Time, MagX, MagY, MagZ, AccX, AccY, AccZ, GyroX, GyroY, GyroZ, Temp, Pres, Yaw, Pitch, Roll
2021-10-30 23:32:19.638517,-135.5,58.25,135.25,996,1681,16392,-1,-1,0,35.78,1011.16,177.6849132770787,11.260419439321225,3.4826255436627087
2021-10-30 23:32:19.924761,-135.125,60.25,132.75,989,1686,16412,1,1,0,35.87,1011.16,176.3692032845781,19.391362157342677,6.357999600889196
2021-10-30 23:32:20.211477,-136.125,58.0,134.625,1017,1689,16400,-1,-2,1,35.88,1011.19,175.76212182024562,24.134193455903628,8.388792092752793
2021-10-30 23:32:20.498837,-134.0,60.375,136.75,1002,1672,16387,1,2,1,35.89,1011.16,175.4031330702937,26.313683098553685,9.936992322261045
2021-10-30 23:32:20.785404,-140.0,59.125,134.375,987,1688,16418,1,2,-1,35.91,1011.19,174.94602177136412,27.82901403133495,10.826889503659041
2021-10-30 23:32:21.072601,-138.375,61.25,135.375,1009,1711,16424,0,1,1,35.92,1011.22,174.50808424135118,28.33523590928729,11.534408684844959
2021-10-30 23:32:21.359210,-136.0,59.875,136.625,965,1683,16407,1,0,1,35.93,1011.21,174.00801505479131,28.29117169570804,11.857101108547628
2021-10-30 23:32:21.646473,-138.875,63.375,130.125,1007,1676,16425,2,2,1,35.93,1011.2,173.3690326717594,28.888559296387108,12.263593113410089
2021-10-30 23:32:21.933107,-139.5,58.25,135.0,995,1701,16418,0,0,1,35.93,1011.17,172.68944789168785,28.818004518636403,12.127929714053622
2021-10-30 23:32:22.219914,-138.0,60.0,133.875,997,1681,16398,0,2,0,35.89,1011.18,172.0063625631771,28.77832856621629,12.11894913247954
2021-10-30 23:32:22.506289,-136.5,60.5,136.0,987,1714,16402,3,0,1,35.88,1011.21,171.34652981361413,28.50444910114274,12.121365463029834
2021-10-30 23:32:22.793271,-136.75,58.75,134.125,974,1687,16424,-2,-1,0,35.88,1011.2,170.589460412933,28.5173984175427,11.949647179193894
2021-10-30 23:32:23.079571,-138.625,59.875,133.25,990,1692,16412,1,3,2,35.88,1011.16,169.79833248792832,28.717707071073555,11.853028356056052
2021-10-30 23:32:23.366259,-136.0,59.5,134.75,1002,1705,16423,3,0,2,35.91,1011.17,169.04932171454422,28.5151450162615,11.762988522729067
2021-10-30 23:32:23.652671,-136.75,61.5,132.125,1002,1688,16462,3,2,1,35.92,1011.19,168.22251473291522,28.671475811060027,11.757673183695928
2021-10-30 23:32:23.940031,-135.625,62.75,135.375,1019,1698,16448,2,3,1,35.92,1011.19,167.4399284806771,28.431268804087576,11.771026269608793
2021-10-30 23:32:24.225598,-138.5,62.25,135.375,1008,1708,16433,-1,0,2,35.92,1011.19,166.55865496088276,28.489531427156088,11.642681330566022
2021-10-30 23:32:24.514383,-136.5,59.0,134.125,1014,1704,16447,-1,-1,-1,35.95,1011.2,165.64283812134883,28.446761641296483,11.359869413084734
2021-10-30 23:32:24.799579,-137.25,58.375,135.5,1024,1707,16426,0,1,-1,35.95,1011.2,164.72032633650414,28.378920195726767,11.069466824739495
2021-10-30 23:32:25.084989,-133.125,60.375,132.5,999,1708,16449,1,1,2,35.97,1011.18,163.82533185602256,28.32160733857992,11.032295942976134
2021-10-30 23:32:25.370761,-136.5,57.875,131.75,1022,1693,16428,1,0,-1,35.98,1011.21,162.7901520338474,28.523440300817725,10.729875555443723
2021-10-30 23:32:25.657424,-136.75,58.375,133.875,980,1697,16441,1,-1,0,35.96,1011.17,161.7940802000349,28.522989253823095,10.499126304320438
2021-10-30 23:32:25.943313,-131.875,61.25,134.5,987,1712,16444,1,1,1,35.94,1011.21,160.904413293101,28.181771798873427,10.552509234156284
2021-10-30 23:32:26.230227,-134.625,60.875,133.25,1005,1693,16420,2,0,1,35.92,1011.17,159.85199467044984,28.23809220423894,10.417425170580454
2021-10-30 23:32:26.518057,-141.75,58.75,133.25,997,1672,16442,0,0,2,35.91,1011.2,158.60647077180735,28.692458916915808,9.976386855462863
2021-10-30 23:32:26.803725,-136.625,62.75,131.25,985,1684,16442,0,0,1,35.91,1011.19,157.4723562890923,28.785245845623393,9.973625852506679
2021-10-30 23:32:27.089206,-139.0,58.75,133.625,972,1712,16416,-3,-1,2,35.92,1011.22,156.30103606353128,28.76136450336974,9.662823025910557
2021-10-30 23:32:27.374715,-137.125,60.5,134.625,1009,1697,16433,2,1,1,35.93,1011.22,155.1686108081423,28.55590472524897,9.510415571249318
2021-10-30 23:32:27.660825,-139.75,61.875,139.125,986,1682,16441,-2,0,0,35.93,1011.16,154.01498909086155,28.323710782045666,9.313584953862007
2021-10-30 23:32:27.947338,-135.875,60.875,138.125,1001,1689,16427,1,3,-1,35.95,1011.19,152.87597633524555,28.00295853938052,9.14456011335988
2021-10-30 23:32:28.233301,-135.625,60.375,132.25,993,1698,16418,-1,3,-1,35.96,1011.2,151.53467625003472,28.189187960022092,8.901912525976421
2021-10-30 23:32:28.519075,-136.875,60.0,136.875,975,1679,16417,1,1,0,35.96,1011.2,150.26144290833636,28.04266140861267,8.629019958220274
2021-10-30 23:32:28.805114,-136.0,60.5,137.625,987,1674,16441,2,2,3,35.97,1011.18,148.98786149757493,27.84721654778455,8.403244991638239
2021-10-30 23:32:29.091020,-136.75,59.75,133.875,986,1699,16456,1,4,-1,35.99,1011.17,147.5415403248168,28.001507792366514,8.093606388861001
2021-10-30 23:32:29.376783,-137.25,62.0,130.375,973,1664,16444,-2,-8,1,35.99,1011.15,145.94565594141952,28.30888289176511,7.840188137733947
2021-10-30 23:32:29.662926,-138.875,62.75,132.75,998,1721,16432,6,1,-1,36.0,1011.2,144.39386004309029,28.377633178569134,7.663276934655388
2021-10-30 23:32:29.949573,-139.0,62.625,131.0,989,1727,16463,4,-1,0,35.99,1011.23,142.74774034826072,28.47997314802187,7.425429625678269
2021-10-30 23:32:30.235456,-137.125,58.375,132.5,988,1748,16422,0,-4,-2,35.99,1011.21,141.19507119002424,28.25159687835901,7.071945916559791
2021-10-30 23:32:30.523657,-134.875,62.75,136.375,998,1707,16434,6,-2,0,35.99,1011.18,139.74287226436985,27.767139448092827,6.97741292681363
2021-10-30 23:32:30.810749,-138.125,60.375,132.75,994,1696,16474,2,0,-1,35.98,1011.22,137.9642135685612,27.82095149036912,6.5214446160966375
2021-10-30 23:32:31.099289,-134.125,62.5,135.0,987,1675,16450,-2,0,-3,35.99,1011.18,136.34523565612378,27.477359241610877,6.31924712237947
2021-10-30 23:32:31.386435,-137.375,59.625,133.75,989,1713,16417,-3,-1,0,35.99,1011.19,134.5274424921657,27.44064386162168,5.857081452389856
2021-10-30 23:32:31.671601,-138.625,60.0,134.75,971,1688,16463,-2,0,1,35.98,1011.19,132.66157939237112,27.38450033452139,5.400370659694435
2021-10-30 23:32:31.958157,-138.0,59.0,134.375,983,1669,16446,-2,-1,0,35.97,1011.2,130.76599922012127,27.257695119979548,4.936907833913034
2021-10-30 23:32:32.243930,-138.5,60.875,133.5,988,1710,16444,-1,0,-1,35.97,1011.21,128.77840800006769,27.19081852971963,4.570960756066081
2021-10-30 23:32:32.529456,-135.5,61.625,133.0,980,1693,16453,0,0,1,35.98,1011.19,126.82533994338303,26.949255365956475,4.302082933352283
2021-10-30 23:32:32.815694,-135.625,60.125,132.625,978,1702,16459,1,0,0,35.99,1011.16,124.79675876144293,26.7270278408149,3.92991079777979
2021-10-30 23:32:33.103477,-135.625,58.75,130.5,1006,1692,16441,2,1,0,36.01,1011.21,122.62909299026262,26.57437324826564,3.44948662735606
2021-10-30 23:32:33.389207,-139.375,59.25,135.625,988,1705,16413,0,-2,0,36.02,1011.18,120.49462185276903,26.302337166261907,2.991753622303634
2021-10-30 23:32:33.674801,-136.75,61.5,135.5,971,1691,16448,0,0,1,36.02,1011.21,118.3708627792816,25.93174250077803,2.6771863807111536
2021-10-30 23:32:33.960434,-136.75,60.25,137.625,1003,1710,16472,-1,0,0,36.03,1011.23,116.27123315560058,25.462644110540783,2.332095066531678
2021-10-30 23:32:34.246765,-139.5,59.75,132.25,988,1698,16488,2,2,1,36.04,1011.2,113.75376329772602,25.398101460253265,1.720728636567237
2021-10-30 23:32:34.532947,-135.75,63.625,132.375,992,1699,16475,0,-1,0,36.04,1011.22,111.35323810716838,25.024613550060796,1.4175121364136274
2021-10-30 23:32:34.819034,-136.125,62.625,133.25,991,1696,16469,0,0,1,36.05,1011.2,108.92531362905375,24.59801195000551,1.0457724516200713
2021-10-30 23:32:35.106511,-137.0,60.0,133.25,1000,1690,16444,2,0,1,36.05,1011.21,106.41997892238138,24.182478401370698,0.5462540738499715
2021-10-30 23:32:35.393002,-133.875,60.875,129.25,983,1673,16442,-3,-3,1,36.04,1011.2,103.8075764150159,23.75552867097988,0.08689405387128266
2021-10-30 23:32:35.678610,-136.375,61.125,131.125,995,1710,16473,0,0,-1,36.04,1011.21,101.147808631944,23.290941006417047,-0.3669654049341909
2021-10-30 23:32:35.964635,-135.625,57.75,133.875,984,1683,16442,2,0,-1,36.04,1011.22,98.61238115707833,22.68143941439012,-0.8323114518959417
2021-10-30 23:32:36.250813,-138.0,62.625,131.875,998,1694,16439,-2,0,1,36.05,1011.21,95.83322544611946,22.15272021174679,-1.2647002388775612
2021-10-30 23:32:36.537087,-134.125,60.75,134.875,987,1710,16446,1,0,0,36.06,1011.24,93.33053242667557,21.371118138079495,-1.524284194129657
2021-10-30 23:32:36.822903,-135.375,61.125,137.25,979,1705,16451,-2,1,1,36.07,1011.17,90.80669357648547,20.600680568964936,-1.8153213662911103
2021-10-30 23:32:37.109207,-137.375,60.5,134.5,995,1711,16453,0,-2,0,36.07,1011.21,88.03857671619154,19.963800947446884,-2.2485810272368885
2021-10-30 23:32:37.395764,-138.0,62.125,135.375,981,1707,16442,1,1,2,36.06,1011.21,85.28905257184628,19.253201055889004,-2.5875924448104506
2021-10-30 23:32:37.681192,-138.375,57.0,133.125,980,1709,16456,0,3,0,36.06,1011.21,82.41056001682124,18.622981074950193,-3.092038092953223
2021-10-30 23:32:37.967454,-137.875,59.875,137.25,983,1712,16439,1,1,2,36.07,1011.21,79.77511807287583,17.76330059047537,-3.3137757442428493
2021-10-30 23:32:38.253126,-137.375,62.75,133.0,965,1695,16415,0,0,1,36.07,1011.2,77.0090332573647,16.92025162850477,-3.5060349592097735
2021-10-30 23:32:38.539209,-138.75,58.875,130.75,982,1703,16421,0,3,-2,36.08,1011.2,74.08722249527464,16.159819599703475,-3.8464929816742135
2021-10-30 23:32:38.824860,-137.375,57.5,133.75,989,1718,16450,0,-1,0,36.09,1011.19,71.39064662713263,15.262757074217273,-4.0329204129360905
2021-10-30 23:32:39.111562,-139.875,60.625,131.625,988,1710,16426,-1,3,-1,36.09,1011.17,68.59819129690119,14.365988730367041,-4.166407682746876
2021-10-30 23:32:39.397548,-136.875,62.75,132.5,963,1698,16464,1,0,-1,36.1,1011.15,66.05090989038764,13.342062559254451,-4.090635357321804
2021-10-30 23:32:39.683345,-140.75,60.625,134.5,971,1719,16446,2,-3,-1,36.1,1011.21,63.41866491382511,12.420009909321992,-4.128124083259692
2021-10-30 23:32:39.969321,-136.125,61.125,135.0,993,1698,16439,-1,1,0,36.12,1011.19,61.05643547349836,11.384928477177134,-3.990768179296159
2021-10-30 23:32:40.255354,-140.625,62.0,130.75,998,1708,16449,-1,6,-2,36.12,1011.21,58.459652076396665,10.480955125119985,-3.955568894527073
2021-10-30 23:32:40.541935,-138.625,58.5,134.875,983,1720,16434,1,0,2,36.12,1011.17,56.07933097586464,9.580294012809063,-3.8679357718957594
2021-10-30 23:32:40.828437,-138.0,61.375,132.75,986,1723,16440,1,2,1,36.12,1011.19,53.82233617934451,8.641079514689334,-3.6309552462130306
2021-10-30 23:32:41.115298,-137.5,59.375,133.25,990,1716,16415,3,1,-2,36.12,1011.18,51.611335938842615,7.764679725598614,-3.429890492919605
2021-10-30 23:32:41.402541,-138.875,64.25,132.5,994,1707,16440,0,1,-1,36.12,1011.2,49.566249824491784,6.843062300714409,-3.0745971602378397
2021-10-30 23:32:41.689096,-135.625,61.0,132.875,984,1714,16424,-2,1,0,36.11,1011.19,47.614392400155246,6.015335773165579,-2.7663664402439005
2021-10-30 23:32:41.975498,-135.625,60.25,134.125,982,1723,16433,-1,-1,1,36.12,1011.2,45.74474670972118,5.249423854455064,-2.4628235426285365
2021-10-30 23:32:42.262200,-138.5,60.0,133.0,996,1705,16440,0,0,1,36.13,1011.18,43.83977241656895,4.555584043419397,-2.223691402558548
2021-10-30 23:32:42.548689,-138.125,61.875,133.375,993,1706,16434,3,1,1,36.14,1011.21,42.126453166510565,3.8548939353194265,-1.8621475329406334
2021-10-30 23:32:42.835842,-132.75,61.75,136.25,982,1736,16453,-1,2,2,36.14,1011.23,40.697512395968616,3.165408132689877,-1.3881933823982207
2021-10-30 23:32:43.122467,-134.625,63.75,132.625,986,1713,16430,1,2,-1,36.14,1011.19,39.27876872625287,2.536524053976447,-0.9531829181623548
2021-10-30 23:32:43.408950,-134.5,58.875,133.75,1004,1693,16427,1,3,0,36.14,1011.19,37.76622358528433,2.0435337522230377,-0.7351012491056284
2021-10-30 23:32:43.696068,-137.5,60.5,133.5,981,1698,16452,0,1,0,36.15,1011.19,36.33295553204544,1.582511121102458,-0.46439207496981433
2021-10-30 23:32:43.982643,-139.125,61.875,129.25,980,1712,16474,1,3,0,36.15,1011.2,34.96700256126168,1.1382099242452317,-0.13414015349529465
2021-10-30 23:32:44.269079,-137.75,61.625,133.0,1009,1722,16467,1,0,0,36.16,1011.21,33.75898869473313,0.6911982209441919,0.22234662150662757
2021-10-30 23:32:44.555702,-136.625,60.25,132.875,997,1718,16467,-1,-2,1,36.16,1011.23,32.60102360813217,0.30648881168423775,0.5281100299871337
2021-10-30 23:32:44.842227,-138.25,60.375,132.375,987,1728,16476,2,0,1,36.16,1011.19,31.48437550492918,-0.028366211000241434,0.8264414534324221
2021-10-30 23:32:45.129476,-137.75,62.875,131.75,1011,1710,16457,0,2,1,36.15,1011.17,30.557143796450404,-0.3970349908559394,1.207110593594242
2021-10-30 23:32:45.415869,-135.75,59.375,130.75,985,1716,16435,0,0,0,36.14,1011.2,29.580204921746155,-0.6638827819956763,1.4615289263547253
2021-10-30 23:32:45.702402,-137.875,58.375,132.75,979,1713,16456,-2,1,0,36.14,1011.21,28.601279687546278,-0.8793362892019637,1.6471938441215024
2021-10-30 23:32:45.989711,-135.625,59.75,137.25,998,1707,16442,2,1,2,36.15,1011.21,27.832118162324072,-1.1342647420726033,1.9372929326853499
2021-10-30 23:32:46.276099,-137.5,64.0,134.625,1000,1708,16456,2,-1,1,36.16,1011.18,27.23163562353127,-1.4163534414269492,2.3319679143737164
2021-10-30 23:32:46.562614,-140.5,60.625,134.5,1002,1723,16442,1,2,-1,36.17,1011.18,26.45029409532041,-1.584487231772699,2.510318954222942
2021-10-30 23:32:46.849729,-135.75,58.125,133.625,1000,1716,16449,3,1,0,36.17,1011.18,25.72903599079759,-1.7364454678492074,2.676492255575485
2021-10-30 23:32:47.135973,-137.375,58.25,135.625,1002,1729,16443,1,-1,-2,36.17,1011.21,25.04337821346785,-1.8790836992538753,2.843161360586746
2021-10-30 23:32:47.422390,-138.0,61.75,132.625,1005,1736,16440,1,0,2,36.18,1011.18,24.550564298436182,-2.063577121138539,3.151567576055595
2021-10-30 23:32:47.709238,-135.625,59.625,135.5,1004,1739,16435,0,-1,0,36.18,1011.14,24.034174290301486,-2.1989254448528373,3.3580837749566728
2021-10-30 23:32:47.995750,-134.875,61.375,134.625,997,1726,16440,2,1,-1,36.18,1011.19,23.637422353093672,-2.3394022152636715,3.61688955925643
2021-10-30 23:32:48.282011,-135.625,64.0,133.375,1006,1695,16439,-2,1,1,36.18,1011.21,23.35751973198286,-2.497009122418561,3.8898910765636097
2021-10-30 23:32:48.568798,-138.625,61.125,133.375,979,1713,16418,2,1,0,36.17,1011.16,22.90418950522538,-2.549504654919356,3.9837449872392616
2021-10-30 23:32:48.855330,-136.625,58.625,133.625,995,1719,16456,1,1,-1,36.16,1011.21,22.42352253780976,-2.5931790942951105,4.026405858086192
2021-10-30 23:32:49.142521,-138.875,60.5,136.0,985,1707,16433,0,0,2,36.17,1011.2,22.035955890192497,-2.651996186530729,4.125672027179197
2021-10-30 23:32:49.428957,-137.25,61.0,131.5,1007,1721,16429,1,1,0,36.16,1011.16,21.73531079294355,-2.7440144336263383,4.297443056081279
2021-10-30 23:32:49.716283,-136.0,61.875,132.25,994,1702,16425,2,3,-2,36.17,1011.21,21.505905924395258,-2.825176636657552,4.476747235920708
2021-10-30 23:32:50.002863,-135.5,61.25,134.0,984,1723,16423,0,0,-1,36.18,1011.21,21.262191767377153,-2.880231552137627,4.612600969790025
2021-10-30 23:32:50.289498,-137.5,63.375,133.375,979,1701,16414,0,1,1,36.18,1011.18,21.09483770131339,-2.9424759252487296,4.7667544677844225
2021-10-30 23:32:50.576006,-136.625,60.5,135.625,1008,1730,16449,2,-1,0,36.18,1011.2,20.816424710669388,-2.9797843383184497,4.810454603225343
2021-10-30 23:32:50.862953,-137.875,59.0,132.875,1009,1708,16435,1,-1,1,36.2,1011.19,20.491739438517467,-3.000059970332312,4.792280805604393
2021-10-30 23:32:51.149503,-133.875,63.25,135.5,987,1679,16422,-2,-6,0,36.2,1011.19,20.43773876878253,-3.0872617078933153,4.980480997173195
2021-10-30 23:32:51.435842,-133.375,58.375,136.75,998,1728,16440,-4,-2,0,36.19,1011.21,20.1704104372481,-3.090181341123536,4.967575318615976
2021-10-30 23:32:51.722598,-135.5,61.0,134.125,999,1720,16427,-1,1,0,36.2,1011.17,20.02027032652199,-3.1271951241682583,5.066467830586821
2021-10-30 23:32:52.009167,-137.5,62.25,132.875,1000,1711,16434,2,2,-1,36.18,1011.19,19.903184106516274,-3.1658981320378703,5.171660034915893
2021-10-30 23:32:52.296123,-138.875,57.875,132.125,992,1717,16459,-1,-2,-1,36.16,1011.2,19.584331468064622,-3.1396346244423694,5.0832795970918605
2021-10-30 23:32:52.582684,-136.25,60.875,131.5,996,1713,16440,1,2,-1,36.15,1011.21,19.483910732573996,-3.1777632101978917,5.198099824775508
2021-10-30 23:32:52.869537,-136.625,61.375,133.0,986,1713,16424,0,0,0,36.15,1011.17,19.39436203772489,-3.2062047960175417,5.2941892201018765
2021-10-30 23:32:53.156083,-136.25,61.25,136.375,999,1717,16446,0,0,-1,36.14,1011.2,19.290713931358596,-3.2324537816004213,5.356733359451448
2021-10-30 23:32:53.442819,-137.625,64.25,132.375,989,1715,16438,2,1,0,36.13,1011.18,19.31767454253395,-3.2828340199092203,5.518411620615482
2021-10-30 23:32:53.729341,-136.5,61.5,133.125,1008,1723,16416,0,2,1,36.12,1011.2,19.22311974835403,-3.299737620246528,5.544168932093197
2021-10-30 23:32:54.016348,-139.125,62.75,132.875,1002,1707,16419,2,0,0,36.11,1011.23,19.15105310025691,-3.3183771635139627,5.576185494478994
2021-10-30 23:32:54.302722,-138.375,63.0,134.25,1006,1719,16443,0,0,1,36.13,1011.19,19.100426621056883,-3.340468809088065,5.62141071171212
2021-10-30 23:32:54.589343,-136.375,61.75,134.375,1004,1725,16433,2,0,1,36.15,1011.18,19.0269010349227,-3.349788854409198,5.64438360396597
2021-10-30 23:32:54.875924,-138.375,58.625,133.0,990,1717,16423,1,-1,0,36.15,1011.18,18.803098366070053,-3.308183270821311,5.530216027591182
2021-10-30 23:32:55.162542,-136.875,64.0,134.375,1012,1729,16434,0,0,-1,36.14,1011.2,18.858021816175206,-3.3691324361404305,5.6869410788692445
2021-10-30 23:32:55.449789,-133.5,60.75,133.0,980,1716,16433,0,1,0,36.11,1011.2,18.811214973916936,-3.3604525299985446,5.708752879962615
2021-10-30 23:32:55.736469,-131.5,58.0,133.5,995,1722,16436,1,2,1,36.08,1011.18,18.679824607952906,-3.3380486149194413,5.653363574629903
2021-10-30 23:32:56.023046,-136.625,60.0,136.125,985,1719,16433,-2,-1,2,36.08,1011.18,18.570370884199072,-3.324662305786835,5.624579701392118
2021-10-30 23:32:56.310036,-138.625,64.625,132.25,998,1719,16429,2,-2,-1,36.08,1011.18,18.657086860548127,-3.382765594613421,5.780522947114938
2021-10-30 23:32:56.596632,-135.25,61.75,136.0,989,1727,16435,-1,1,2,36.08,1011.19,18.6296928424641,-3.382645646728923,5.801947753864897
2021-10-30 23:32:56.883641,-137.5,62.25,132.875,976,1712,16421,1,1,0,36.11,1011.17,18.605638884933857,-3.375038232110276,5.817219096192273
2021-10-30 23:32:57.170226,-137.125,64.5,132.875,997,1693,16422,0,-3,1,36.13,1011.17,18.68537588323895,-3.4202131594531924,5.899393472785689
2021-10-30 23:32:57.456819,-138.5,58.5,132.5,987,1700,16425,-1,1,0,36.14,1011.18,18.47324238518855,-3.361334089324036,5.720564812845945
2021-10-30 23:32:57.743856,-137.0,61.625,132.125,995,1694,16433,-1,0,0,36.15,1011.19,18.461192977448267,-3.377143847635226,5.746616125933727
2021-10-30 23:32:58.031320,-134.5,60.375,134.375,1002,1707,16450,-2,0,2,36.16,1011.17,18.421657493662746,-3.385395239025023,5.746914156238558
2021-10-30 23:32:58.317845,-135.25,59.875,134.125,984,1717,16449,0,2,-1,36.15,1011.19,18.351483042937254,-3.3677186531434624,5.735299794494899
2021-10-30 23:32:58.605014,-134.5,66.0,132.875,991,1738,16457,1,1,-1,36.13,1011.17,18.565705189281005,-3.4445309316799304,5.988187777284855
2021-10-30 23:32:58.892414,-133.875,61.0,133.125,989,1702,16437,0,0,-3,36.12,1011.18,18.524029244716125,-3.428789564205845,5.938515491634159
2021-10-30 23:32:59.179107,-137.875,64.75,135.125,996,1722,16439,-1,-1,0,36.11,1011.17,18.585496708552554,-3.452609644964668,5.9993379014200015
2021-10-30 23:32:59.465982,-135.625,57.125,136.25,981,1710,16461,1,-1,-1,36.09,1011.17,18.34220334284929,-3.372597908745874,5.769556634864096
2021-10-30 23:32:59.752515,-135.5,59.75,133.0,997,1720,16444,-1,2,1,36.09,1011.21,18.278949754212327,-3.369282158673919,5.757905817061948
2021-10-30 23:33:00.038837,-138.125,60.875,134.25,978,1729,16431,-1,0,0,36.08,1011.16,18.226994572059613,-3.3597365240365304,5.768884253126958
2021-10-30 23:33:00.325530,-134.25,58.125,134.625,990,1713,16439,-2,0,0,36.08,1011.17,18.117713141455404,-3.344219261519418,5.710214792846134
2021-10-30 23:33:00.612090,-133.5,61.125,131.25,985,1716,16445,-3,1,1,36.08,1011.16,18.183409430647227,-3.3763233351307878,5.817343355618348
2021-10-30 23:33:00.899447,-133.375,60.75,133.25,974,1697,16449,-2,0,-2,36.08,1011.18,18.20173251634207,-3.381314670569579,5.849969495737291
2021-10-30 23:33:01.185763,-136.5,57.25,135.25,952,1707,16427,-1,-1,2,36.09,1011.19,18.019784714493827,-3.314631032257119,5.704633851773092
2021-10-30 23:33:01.472825,-138.875,61.875,134.25,987,1712,16427,3,-1,-1,36.09,1011.2,18.036260464152534,-3.344755350088099,5.780469780127936
2021-10-30 23:33:01.759426,-136.25,60.625,135.75,988,1704,16429,0,-2,1,36.09,1011.18,18.022096882791107,-3.361054419418836,5.79922616858744
2021-10-30 23:33:02.045429,-135.5,63.0,134.0,1001,1726,16405,1,1,0,36.09,1011.19,18.124286798154415,-3.414100271207488,5.9363440988968135
2021-10-30 23:33:02.331285,-133.75,60.75,132.875,984,1734,16429,-3,-1,0,36.1,1011.17,18.135245405226513,-3.417953082621484,5.962010097234749
2021-10-30 23:33:02.617214,-136.25,60.75,131.25,982,1727,16430,-1,-4,2,36.11,1011.18,18.11866923485658,-3.415552079152572,5.953258095823166
2021-10-30 23:33:02.903066,-136.25,60.625,130.875,980,1741,16417,-4,-4,3,36.12,1011.21,18.102317818989405,-3.412733305050745,5.953106698593821
2021-10-30 23:33:03.189035,-134.875,59.625,134.875,1000,1721,16438,1,0,-1,36.12,1011.18,18.04051322573972,-3.406375470370042,5.906873211576375
2021-10-30 23:33:03.474741,-137.875,60.875,134.125,964,1709,16417,1,-2,0,36.12,1011.19,18.006846608197733,-3.3863789178543198,5.888083815060597
2021-10-30 23:33:03.760566,-133.75,60.25,135.75,1005,1706,16428,0,0,2,36.12,1011.2,18.00504214275344,-3.4063002249493715,5.893074995740685
2021-10-30 23:33:04.046864,-138.625,60.75,136.375,975,1697,16424,-4,-3,-1,36.12,1011.21,17.949448874958,-3.3898302420461106,5.842142126872858
2021-10-30 23:33:04.332740,-137.375,62.875,130.25,997,1742,16459,1,4,-1,36.13,1011.18,18.04457984443207,-3.423467367772078,5.968917886177167
2021-10-30 23:33:04.618672,-134.5,62.5,133.375,981,1714,16411,1,4,0,36.13,1011.2,18.124013479429205,-3.4358211286635063,6.037512613891278
2021-10-30 23:33:04.905085,-138.125,62.0,131.75,997,1730,16417,1,1,-1,36.14,1011.2,18.121984600939967,-3.4384133360403695,6.033544033183199
2021-10-30 23:33:05.191050,-133.125,61.5,135.625,988,1721,16407,1,0,-2,36.15,1011.21,18.14663962659384,-3.44370793456376,6.049598534481481
2021-10-30 23:33:05.476854,-137.125,60.125,131.625,995,1725,16408,1,1,-1,36.16,1011.21,18.075284515185903,-3.424531591628218,5.980906560227889
2021-10-30 23:33:05.762917,-134.0,58.875,131.75,998,1711,16427,1,-2,2,36.17,1011.19,18.01366546594075,-3.41706495388895,5.91861148155579
2021-10-30 23:33:06.049447,-136.0,61.375,132.625,982,1674,16420,-2,2,0,36.18,1011.2,18.03882975518624,-3.418167764228511,5.914824367174799
2021-10-30 23:33:06.335114,-138.0,55.75,135.375,978,1700,16416,-2,1,-2,36.19,1011.17,17.779555666303686,-3.3422888182391013,5.686911455410696
2021-10-30 23:33:06.621160,-138.25,62.0,135.5,968,1707,16404,-2,4,1,36.19,1011.18,17.83640444584227,-3.356530238295194,5.789106492796176
2021-10-30 23:33:06.907082,-136.5,60.5,137.0,992,1717,16424,-1,-1,-2,36.19,1011.18,17.82476260527438,-3.373602054176666,5.821221219444186
2021-10-30 23:33:07.192855,-137.25,60.625,133.75,1020,1733,16431,1,-2,1,36.2,1011.19,17.826022664086878,-3.4120132090454307,5.868339568905954
2021-10-30 23:33:07.478889,-136.25,60.25,133.0,998,1716,16427,-4,-1,2,36.19,1011.22,17.825641893088584,-3.4232606843259563,5.881436923690415
2021-10-30 23:33:07.764526,-139.375,56.375,136.0,984,1720,16424,0,1,-1,36.19,1011.16,17.600359562325337,-3.3600728553750057,5.708718640192651
2021-10-30 23:33:08.051197,-141.75,59.875,130.625,980,1711,16412,1,1,-1,36.2,1011.17,17.559959732594077,-3.3577413458223244,5.733810771519275
2021-10-30 23:33:08.337580,-139.625,60.375,134.125,978,1722,16422,2,3,-1,36.19,1011.19,17.555048440945495,-3.360021348646027,5.791114161714157
2021-10-30 23:33:08.624570,-138.5,58.25,137.25,974,1695,16396,-1,1,0,36.19,1011.2,17.459040647984942,-3.3375901706447917,5.730335805807373
2021-10-30 23:33:08.911075,-134.625,61.375,133.5,978,1690,16412,-1,0,0,36.2,1011.23,17.582376446960357,-3.384943147471964,5.870493256748585
2021-10-30 23:33:09.198064,-134.0,60.375,130.125,992,1701,16436,1,-1,1,36.2,1011.2,17.663185672428668,-3.419684264408084,5.948651904394588
2021-10-30 23:33:09.485304,-135.625,59.375,134.75,997,1708,16402,-1,9,0,36.2,1011.18,17.635882990299688,-3.4073442152328437,5.921138906014149
2021-10-30 23:33:09.771861,-137.375,59.125,132.0,974,1707,16418,1,2,1,36.21,1011.19,17.594545680538555,-3.386565347288077,5.889257452074203
2021-10-30 23:33:10.059162,-139.125,61.5,134.125,979,1721,16418,2,-3,2,36.21,1011.19,17.628029265949856,-3.401655296018574,5.940172955533616
2021-10-30 23:33:10.346456,-137.875,62.375,136.5,998,1702,16443,1,3,0,36.21,1011.17,17.69162270384378,-3.4265350689841423,5.98981969281728
2021-10-30 23:33:10.633161,-133.75,63.75,133.375,982,1686,16398,1,3,-1,36.21,1011.21,17.873025274767993,-3.470855546513977,6.123247651297992
2021-10-30 23:33:10.919514,-135.25,58.625,132.75,966,1730,16418,1,-1,0,36.22,1011.19,17.784311264340083,-3.4212335439761605,6.0230417406941426
2021-10-30 23:33:11.206430,-136.625,60.75,136.875,962,1702,16425,-1,0,0,36.23,1011.2,17.76835978588575,-3.397479092364897,5.9830702118476955
2021-10-30 23:33:11.492950,-136.25,63.625,132.125,994,1686,16416,3,0,-1,36.24,1011.2,17.91027086700257,-3.448061296679274,6.082310152218331
2021-10-30 23:33:11.779503,-135.375,61.25,132.375,985,1712,16439,0,0,-1,36.24,1011.2,17.93318682966848,-3.4461373514449343,6.072249618795673
2021-10-30 23:33:12.065999,-138.0,57.875,133.5,984,1703,16417,0,1,-1,36.25,1011.17,17.769669139864465,-3.393364128466638,5.89861343106406
2021-10-30 23:33:12.352424,-136.625,61.375,135.375,979,1719,16414,1,0,0,36.25,1011.2,17.800598295813447,-3.4027354216623737,5.945482530813769
2021-10-30 23:33:12.639167,-134.625,61.0,129.25,990,1707,16422,-1,1,-1,36.26,1011.21,17.868353033627802,-3.4263809205176776,5.999947212204123
2021-10-30 23:33:12.925687,-136.125,62.75,132.25,980,1709,16451,1,0,-2,36.26,1011.2,17.957315927309438,-3.443962556588032,6.0642655707346504
2021-10-30 23:33:13.212577,-135.875,59.625,131.0,971,1708,16451,-1,-3,1,36.26,1011.18,17.909840873619846,-3.4166143716805304,5.9902975055846115
2021-10-30 23:33:13.499863,-138.0,59.0,133.25,993,1721,16439,-1,0,2,36.26,1011.17,17.8098467458458,-3.39387764787931,5.897492167942082
2021-10-30 23:33:13.786320,-136.25,59.5,134.25,981,1727,16385,1,-2,0,36.25,1011.19,17.767491909100784,-3.3885974628622484,5.889665949971524
2021-10-30 23:33:14.072900,-138.375,61.25,131.75,989,1708,16423,-1,-1,0,36.25,1011.15,17.790339078660313,-3.4049955219529133,5.918496202139255
2021-10-30 23:33:14.359991,-133.75,61.625,133.625,960,1695,16387,0,3,-1,36.25,1011.23,17.875823241178807,-3.41012403478533,5.991601073475713
2021-10-30 23:33:14.646501,-139.625,62.5,133.5,959,1689,16407,0,-3,2,36.25,1011.18,17.905393645173984,-3.4039429250527533,5.988371651025129
2021-10-30 23:33:14.932990,-136.625,61.375,132.875,986,1714,16386,-1,-5,1,36.25,1011.18,17.925950514515584,-3.421453359873632,6.000135264634064
2021-10-30 23:33:15.219950,-135.375,64.375,133.875,984,1723,16423,3,0,0,36.24,1011.19,18.079347028519116,-3.4634970673296768,6.134752714736896
2021-10-30 23:33:15.506347,-136.5,56.0,134.875,962,1710,16425,0,0,1,36.22,1011.22,17.83079558597916,-3.3675958128580126,5.870398322405942
2021-10-30 23:33:15.792624,-135.625,61.5,133.25,970,1708,16423,1,2,0,36.23,1011.15,17.8891870912008,-3.380137198650976,5.937464606798174
2021-10-30 23:33:16.079384,-133.625,59.5,132.375,966,1726,16394,1,2,1,36.22,1011.2,17.88196204895484,-3.3694176602641503,5.947647033801389
2021-10-30 23:33:16.365310,-135.875,62.875,134.75,971,1708,16419,-1,1,1,36.2,1011.17,17.974364997400205,-3.393524384700139,6.0232705378645575
2021-10-30 23:33:16.651910,-136.375,63.875,130.5,969,1697,16409,0,-2,-1,36.2,1011.18,18.106151776648947,-3.426396287699087,6.108239060469513
2021-10-30 23:33:16.937691,-138.375,59.625,133.25,973,1735,16412,-2,1,0,36.21,1011.21,17.989484234011233,-3.381778678379458,5.988875009533543
2021-10-30 23:33:17.223430,-136.0,60.875,134.0,976,1715,16418,1,-1,0,36.22,1011.21,17.98149791881667,-3.3814135853694776,5.977826199609728
2021-10-30 23:33:17.509662,-136.75,62.0,132.25,981,1716,16458,-3,-6,-1,36.22,1011.2,18.020036735279,-3.4038489354330066,6.002690305794182
2021-10-30 23:33:17.796322,-134.125,61.375,133.625,958,1749,16380,1,1,0,36.23,1011.21,18.054045370633546,-3.396104011855111,6.054964486162083
2021-10-30 23:33:18.082066,-135.25,58.5,130.5,974,1682,16414,2,-1,-1,36.23,1011.15,17.958370981444993,-3.367345945091526,5.931124073482733
2021-10-30 23:33:18.368397,-136.625,59.25,134.75,959,1699,16409,0,3,-1,36.24,1011.2,17.87895212858512,-3.3323129378548986,5.858239861621144
2021-10-30 23:33:18.654169,-134.75,58.625,133.75,975,1712,16416,1,0,-1,36.25,1011.2,17.819582136271418,-3.326900603385865,5.83076825103541
2021-10-30 23:33:18.939883,-137.625,63.25,132.375,974,1744,16421,5,0,0,36.26,1011.2,17.93408624965942,-3.370246739565361,5.9875888916442355
2021-10-30 23:33:19.225797,-139.125,59.875,132.5,963,1689,16446,-1,2,2,36.29,1011.2,17.85983185210033,-3.3386124227043146,5.892422857699476
2021-10-30 23:33:19.512060,-139.25,60.625,130.0,968,1709,16437,2,0,0,36.31,1011.17,17.8430438949549,-3.3373539345773775,5.891504811863863
2021-10-30 23:33:19.798557,-139.875,61.75,131.25,977,1712,16448,0,2,-1,36.32,1011.21,17.860361890431108,-3.348948719208931,5.918513114205281
2021-10-30 23:33:20.084307,-136.25,62.125,132.25,969,1691,16450,-2,-1,0,36.33,1011.19,17.935399087614872,-3.37230869814642,5.968606174672306
2021-10-30 23:33:20.370500,-134.875,61.0,133.375,966,1705,16437,-2,-3,-1,36.34,1011.19,17.958754072847547,-3.3777590898211844,5.977291034545984
2021-10-30 23:33:20.656855,-138.375,61.5,132.75,971,1731,16447,-1,1,0,36.35,1011.18,17.955532515536373,-3.3717260166996836,5.980083286135222
2021-10-30 23:33:20.942739,-135.25,62.125,133.875,979,1691,16449,2,-2,0,36.35,1011.17,18.017303691083292,-3.395637548129285,6.01193467383307
2021-10-30 23:33:21.228474,-133.875,62.0,132.125,980,1705,16447,0,-1,2,36.35,1011.19,18.09437837604592,-3.4175778028184,6.054924594220174
2021-10-30 23:33:21.514609,-137.125,61.125,133.375,976,1695,16451,-2,0,0,36.36,1011.16,18.06624847462798,-3.4004817573985266,5.9886190546083435
2021-10-30 23:33:21.800553,-135.25,64.25,133.125,968,1679,16471,1,0,1,36.37,1011.18,18.209580570578773,-3.429374432376396,6.073725856747228
2021-10-30 23:33:22.086325,-135.875,61.0,133.625,965,1710,16440,3,5,-2,36.38,1011.15,18.17366899971277,-3.392682070552466,6.018132117392208
2021-10-30 23:33:22.372488,-136.0,61.5,133.875,972,1679,16444,1,1,0,36.38,1011.2,18.16993826953749,-3.3835579402733607,5.973355647267027
2021-10-30 23:33:22.657915,-141.125,61.375,131.625,966,1706,16447,1,-1,1,36.38,1011.13,18.105408367414928,-3.358870562726578,5.908945053240827
2021-10-30 23:33:22.943874,-134.75,63.0,133.125,976,1734,16427,-1,1,1,36.39,1011.2,18.204502955842987,-3.391167473358632,6.018479733917176
2021-10-30 23:33:23.229752,-133.25,62.5,135.25,977,1702,16428,-2,-1,1,36.38,1011.18,18.269661440680604,-3.4101527698687244,6.048760130018624
2021-10-30 23:33:23.515636,-135.75,61.625,131.875,963,1724,16454,0,2,0,36.4,1011.18,18.268767802392865,-3.389588907393414,6.032456027572472
2021-10-30 23:33:23.802006,-134.375,63.75,131.625,962,1706,16404,-1,-1,2,36.4,1011.2,18.384549509892054,-3.4126702176217965,6.105970777036092
2021-10-30 23:33:24.087840,-131.625,61.5,135.0,943,1728,16393,0,-1,0,36.41,1011.17,18.399915363630026,-3.388427181103692,6.099802862809844
2021-10-30 23:33:24.373664,-136.625,60.5,133.625,979,1701,16447,-1,2,0,36.41,1011.23,18.311754355674235,-3.3600507644168616,5.977432255532721
2021-10-30 23:33:24.659941,-140.125,60.25,134.75,967,1722,16499,0,10,-1,36.4,1011.16,18.180653834709467,-3.304382761393063,5.861463560076267
2021-10-30 23:33:24.945792,-137.75,61.25,132.625,938,1716,16385,4,19,-1,36.4,1011.15,18.163968689170872,-3.2620247533952145,5.8787245357128315
2021-10-30 23:33:25.231503,-136.375,61.25,131.75,1007,1727,16484,-11,-13,-3,36.41,1011.19,18.165156740777608,-3.3297158829692615,5.8927272374377395
2021-10-30 23:33:25.517543,-132.375,64.0,132.25,1017,1765,16475,-29,2,4,36.42,1011.18,18.34395714217707,-3.4193914045220675,6.050919218502283
2021-10-30 23:33:25.803826,-135.625,63.25,134.625,992,1709,16431,0,19,3,36.42,1011.18,18.396622550399155,-3.408667925380746,6.064248270626823
2021-10-30 23:33:26.089623,-137.875,60.75,132.375,971,1724,16442,1,6,0,36.42,1011.16,18.309843767988973,-3.36527390493427,5.9735406181515565
2021-10-30 23:33:26.375481,-135.5,61.25,134.375,978,1739,16424,-5,4,0,36.42,1011.18,18.286638433344365,-3.3580412132787116,5.961560007693322
2021-10-30 23:33:26.661164,-134.5,61.5,131.5,972,1702,16416,-2,1,3,36.43,1011.19,18.312772464515565,-3.3658039919150835,5.967354167815789
2021-10-30 23:33:26.948505,-136.0,61.875,134.875,995,1712,16405,1,0,-1,36.43,1011.18,18.30544094198212,-3.3827364236748725,5.961689595006301
2021-10-30 23:33:27.234546,-137.125,60.625,134.75,1003,1738,16414,22,-32,-4,36.43,1011.18,18.221280684462883,-3.4290799504866434,5.949878032738152
2021-10-30 23:33:27.520381,-136.5,60.875,134.875,971,1637,16436,30,-20,-2,36.41,1011.16,18.17452413757881,-3.431470197627572,5.89896360241343
2021-10-30 23:33:27.806530,-137.875,62.125,137.125,773,1791,16203,28,83,33,36.4,1011.17,18.218815599956624,-3.156464904340026,6.01526336828202
2021-10-30 23:33:28.092455,-134.875,59.375,133.375,1095,1740,16571,-7,-2,-6,36.41,1011.22,18.134824310048383,-3.2682616582316,5.9350084388107485
2021-10-30 23:33:28.378268,-136.625,57.75,132.375,1198,1978,16566,-23,-59,-16,36.43,1011.23,17.941788143300922,-3.4935842263767185,5.963976192765992
2021-10-30 23:33:28.664318,-138.125,59.25,131.0,1185,1833,16313,-23,-2,1,36.44,1011.17,17.849873967484662,-3.6115832786922724,5.954303803674438
2021-10-30 23:33:28.950168,-133.5,58.625,134.25,1267,1693,16462,41,-22,6,36.42,1011.22,17.799117547103574,-3.795019528965011,5.945515230081938
2021-10-30 23:33:29.236766,-136.375,58.0,130.875,1144,1912,16253,53,28,20,36.4,1011.19,17.71533328498803,-3.7735321986384798,6.097090453504352
2021-10-30 23:33:29.522740,-135.375,54.625,135.75,1077,1797,16440,-49,40,12,36.38,1011.12,17.475168537473692,-3.6372618677291886,5.8202808413427265
2021-10-30 23:33:29.808615,-137.25,57.375,132.125,1085,1866,16469,-2,-12,3,36.38,1011.19,17.374660223090363,-3.654199697952297,5.876863786961448
2021-10-30 23:33:30.095144,-135.375,59.875,132.125,982,1884,16402,15,13,10,36.38,1011.19,17.426180555731822,-3.594458885975467,6.082603122615124
2021-10-30 23:33:30.381097,-137.125,62.75,131.875,971,1754,16425,-1,7,3,36.39,1011.2,17.55044387182268,-3.5671368659044034,6.184089910094617
2021-10-30 23:33:30.666962,-138.5,58.5,135.25,976,1752,16423,-6,24,2,36.42,1011.2,17.436315432600253,-3.459846944613887,6.048295726182265
2021-10-30 23:33:30.953261,-134.875,57.625,132.75,925,1768,16421,2,-4,-3,36.43,1011.17,17.362043458949472,-3.391740462024077,6.013151532934327
2021-10-30 23:33:31.239147,-138.125,61.125,134.125,914,1794,16416,6,-14,1,36.43,1011.19,17.403024059249102,-3.37586923941221,6.10894026029497
2021-10-30 23:33:31.524759,-136.375,60.125,134.25,931,1767,16428,-4,-5,-1,36.44,1011.2,17.410955032526314,-3.3531962801358453,6.119091893539748
2021-10-30 23:33:31.811000,-138.625,61.25,133.0,890,1768,16401,-14,11,-2,36.45,1011.2,17.44297131020842,-3.288380607684666,6.13461923259738
2021-10-30 23:33:32.096667,-138.375,61.5,132.375,913,1740,16441,-2,-2,0,36.46,1011.18,17.491454159578268,-3.2764853358431045,6.15194128731519
2021-10-30 23:33:32.382817,-137.25,61.375,132.125,924,1776,16419,3,-2,0,36.46,1011.19,17.54254327052389,-3.2774116968015408,6.205250560333862
2021-10-30 23:33:32.668875,-137.875,59.625,133.125,930,1782,16438,1,0,2,36.46,1011.19,17.497346811680618,-3.2521985097475428,6.161116811879739
2021-10-30 23:33:32.955073,-137.125,60.125,134.25,941,1768,16398,-1,-1,1,36.47,1011.22,17.486555557769815,-3.2534109624760776,6.147457344365145
2021-10-30 23:33:33.241720,-135.375,62.25,135.375,928,1733,16436,-1,-1,-1,36.46,1011.19,17.583003368931067,-3.2737020524923643,6.2036744132693595
2021-10-30 23:33:33.527453,-137.375,59.25,132.75,948,1789,16427,-2,-3,1,36.45,1011.17,17.52365496672108,-3.2642648762051545,6.151474379603861
2021-10-30 23:33:33.813347,-138.25,60.125,134.75,929,1777,16394,-1,-4,1,36.43,1011.19,17.491816477001436,-3.2529207062799195,6.129644532198875
2021-10-30 23:33:34.099806,-136.125,60.875,131.5,946,1782,16424,2,-1,1,36.44,1011.2,17.54451422605228,-3.2741369798550526,6.19091494742491
2021-10-30 23:33:34.385686,-139.0,60.125,135.125,946,1774,16415,1,2,-2,36.45,1011.18,17.491217411691192,-3.258311447993519,6.1435131827306675
2021-10-30 23:33:34.671452,-139.875,58.375,130.625,935,1783,16427,0,0,1,36.47,1011.16,17.388416418380437,-3.227762423723938,6.068186166638899
2021-10-30 23:33:34.957670,-141.0,60.625,133.875,947,1780,16420,0,-2,1,36.46,1011.21,17.37077238478833,-3.2380202055973113,6.079350665908966
2021-10-30 23:33:35.243569,-138.375,62.5,134.375,946,1770,16421,0,0,0,36.43,1011.19,17.464187574343384,-3.2727422372228667,6.176362894402727
2021-10-30 23:33:35.529088,-138.125,61.375,133.0,934,1758,16431,-2,0,-1,36.42,1011.23,17.49931651244183,-3.2741176438511967,6.1890934621335125
2021-10-30 23:33:35.815080,-137.375,60.5,135.375,939,1792,16429,3,5,-1,36.44,1011.2,17.48872206228176,-3.25929118551422,6.19310767130363
2021-10-30 23:33:36.100947,-137.625,59.25,132.75,933,1747,16398,3,5,2,36.45,1011.16,17.443025003829575,-3.2342151794040372,6.129401944145177
2021-10-30 23:33:36.387558,-140.875,58.125,136.75,969,1742,16443,2,-7,1,36.46,1011.16,17.29748553893128,-3.2320083740024335,5.98673212374052
2021-10-30 23:33:36.673395,-139.5,60.125,136.625,902,1779,16421,5,-2,3,36.47,1011.17,17.285898926094312,-3.208796055043358,6.025010248432783
2021-10-30 23:33:36.959227,-139.5,60.125,131.875,920,1775,16443,1,-2,1,36.48,1011.21,17.294793329195027,-3.208989888403503,6.063985595988154
2021-10-30 23:33:37.245599,-136.125,58.5,135.5,936,1809,16428,3,3,1,36.48,1011.17,17.25559486762063,-3.2013390260310843,6.081932483995156
2021-10-30 23:33:37.530907,-134.125,57.875,137.75,908,1702,16442,-10,-2,2,36.48,1011.18,17.213756967607242,-3.1791087509427762,5.987091409165255
2021-10-30 23:33:37.817599,-136.625,59.0,136.25,887,1727,16446,0,-2,5,36.49,1011.18,17.21117811424363,-3.156620693041724,5.98000251428174
2021-10-30 23:33:38.103572,-136.0,55.25,136.75,899,1792,16983,10,-1,2,36.49,1011.13,17.054935772231428,-3.084853081679688,5.860507591126457
2021-10-30 23:33:38.389385,-131.25,55.375,138.0,930,1739,16485,6,-6,-1,36.48,1011.17,16.98546020649819,-3.1024055822624166,5.84294377054537
2021-10-30 23:33:38.675772,-128.875,57.25,136.5,920,1724,16443,5,5,-1,36.48,1011.22,17.042418316005666,-3.130344835790286,5.937461791799648
2021-10-30 23:33:38.961728,-133.125,56.125,129.375,885,1695,16395,31,23,-13,36.5,1011.17,17.002863665371894,-3.0760280212239595,5.955008199481202
2021-10-30 23:33:39.247595,-135.75,63.625,130.875,891,1727,16382,6,2,-1,36.49,1011.19,17.26243598044917,-3.1499221932511703,6.200083294056455
2021-10-30 23:33:39.533736,-138.625,58.375,131.375,880,1713,16390,1,-7,0,36.49,1011.18,17.19903803259432,-3.123091064381627,6.095753842512057
2021-10-30 23:33:39.819444,-139.5,59.25,130.25,910,1743,16392,6,3,-1,36.48,1011.18,17.18447878295315,-3.122999939369858,6.087452838126246
2021-10-30 23:33:40.105316,-143.25,60.0,131.625,882,1669,16393,-5,1,5,36.47,1011.18,17.158940420091533,-3.1004374094898477,5.990502346521038
2021-10-30 23:33:40.391432,-140.5,61.625,128.75,881,1704,16435,-1,-4,-3,36.48,1011.18,17.255739499964374,-3.1213368092970555,6.0561312198347625
2021-10-30 23:33:40.678108,-142.75,63.75,132.75,905,1708,16411,12,11,-13,36.49,1011.18,17.358233647612312,-3.138465058761147,6.147636525292408
2021-10-30 23:33:40.964001,-140.625,63.25,130.625,907,1684,16425,5,4,-7,36.49,1011.19,17.468002587955144,-3.1634837054109064,6.187218925963307
2021-10-30 23:33:41.250302,-140.75,60.0,128.5,901,1762,16473,-5,-1,-1,36.51,1011.21,17.434343072785964,-3.1454902465304544,6.135396594269621
2021-10-30 23:33:41.535965,-138.75,58.375,131.5,877,1813,16426,-4,-7,-2,36.52,1011.17,17.347092088877833,-3.1108698498878686,6.096288801084538
2021-10-30 23:33:41.821826,-143.125,62.875,129.375,912,1766,16461,-2,-5,-3,36.52,1011.2,17.4223443830493,-3.147533823169109,6.164454810817501
2021-10-30 23:33:42.107879,-139.875,60.5,130.875,913,1771,16450,-2,1,-2,36.52,1011.22,17.4163195282107,-3.147286592202364,6.1545846537876665
2021-10-30 23:33:42.393734,-135.75,65.5,132.5,892,1778,16436,0,-2,-2,36.52,1011.22,17.670102030418686,-3.210908082867115,6.379864632872568
2021-10-30 23:33:42.679750,-137.125,60.75,132.125,896,1765,16474,-1,-2,-1,36.53,1011.21,17.655149438066196,-3.184205789203822,6.307077076279412
2021-10-30 23:33:42.965615,-143.5,59.625,130.375,888,1769,16426,-3,5,2,36.52,1011.2,17.527886996758905,-3.120692238255198,6.15965627895814
2021-10-30 23:33:43.251306,-141.5,59.375,132.5,861,1770,16418,1,-1,0,36.51,1011.18,17.434316336733666,-3.068534674848624,6.0814469449201
2021-10-30 23:33:43.538165,-139.125,58.375,129.875,896,1755,16438,-3,-1,-1,36.5,1011.2,17.362013811436984,-3.0590766061710766,6.021020231727709
2021-10-30 23:33:43.824194,-141.5,60.0,132.625,885,1783,16395,-1,-2,-1,36.51,1011.18,17.327170323542827,-3.056619215495655,6.034152704261035
2021-10-30 23:33:44.110054,-140.0,62.875,128.375,867,1771,16434,5,4,-2,36.52,1011.19,17.463959313879243,-3.075570518282964,6.181171941363898
2021-10-30 23:33:44.396501,-141.625,54.25,135.125,865,1785,16428,7,6,-1,36.53,1011.21,17.146964305946405,-2.97047348033781,5.922237544631165
2021-10-30 23:33:44.682379,-137.75,61.125,133.875,869,1787,16418,-1,-2,1,36.5,1011.21,17.243614095109113,-3.0096659669366415,6.069228754290358
2021-10-30 23:33:44.968284,-140.625,59.375,132.375,877,1819,16432,2,0,-1,36.48,1011.15,17.20557475250165,-3.006650878521689,6.0976265864474835
2021-10-30 23:33:45.254133,-140.25,58.75,131.125,878,1785,16450,-2,-3,2,36.5,1011.19,17.15938612144182,-3.005877797356953,6.075467321610919
